# cellulose diacetate "Courtaulds" 0.480 mm thick
# HP array spectrophotometer (no integrating sphere)
w.length transmittance
190  0.00382
191	0.00253
192	0.0021
193	0.00195
194	0.01002
195	0.00721
196	0.00521
197	0.00511
198	0.00482
199	0.00579
200	0.00694
201	0.00361
202	5.61E-04
203	0.00581
204	0.00664
205	0.00594
206	0.0017
207	0.00459
208	0.00459
209	0.00351
210	0.00139
211	0.003
212	0.0096
213	0.00277
214	0.00615
215	0.00365
216	8.21E-04
217	0.00406
218	3.57E-04
219	0.00594
220	0.00956
221	0.00885
222	0.00302
223	9.75E-04
224	6.61E-04
225	0.00713
226	0.00101
227	8.40E-04
228	0.00184
229	0.00205
230	0.01128
231	0.00489
232	0.00894
233	0.00991
234	0.01038
235	0.00684
236	0.0035
237	0.00325
238	0.0011
239	0.00319
240	0.01054
241	0.01353
242	0.01017
243	0.0077
244	0.00524
245	0.00759
246	0.01327
247	0.01576
248	0.00965
249	0.00201
250	0.00452
251	0.007
252	0.01549
253	0.01412
254	0.01191
255	0.00816
256	0.01159
257	0.00853
258	0.01923
259	0.01667
260	0.01445
261	0.01232
262	0.01543
263	0.01729
264	0.01634
265	0.02121
266	0.02327
267	0.0213
268	0.02365
269	0.02804
270	0.02856
271	0.03065
272	0.04411
273	0.0462
274	0.04428
275	0.03279
276	0.02949
277	0.0414
278	0.05506
279	0.06082
280	0.06183
281	0.05948
282	0.06315
283	0.05521
284	0.07617
285	0.08917
286	0.08821
287	0.07796
288	0.08992
289	0.10895
290	0.11714
291	0.13068
292	0.1393
293	0.15933
294	0.20022
295	0.34547
296	0.9318
297	2.70883
298	6.46945
299	12.35492
300	19.38105
301	26.55071
302	33.09904
303	38.45791
304	42.65731
305	45.92138
306	48.28552
307	50.04634
308	51.41898
309	52.44506
310	53.2881
311	53.94151
312	54.5138
313	55.02119
314	55.46092
315	55.88735
316	56.27243
317	56.6354
318	56.98708
319	57.31954
320	57.64153
321	57.95197
322	58.27751
323	58.58121
324	58.89413
325	59.20923
326	59.52288
327	59.83714
328	60.14699
329	60.45446
330	60.78418
331	61.10859
332	61.43784
333	61.76438
334	62.09021
335	62.41693
336	62.75694
337	63.08038
338	63.41092
339	63.75215
340	64.07763
341	64.40717
342	64.72476
343	65.06949
344	65.4126
345	65.74959
346	66.06364
347	66.40179
348	66.74021
349	67.04559
350	67.34661
351	67.64497
352	67.93897
353	68.23951
354	68.49984
355	68.74803
356	68.98894
357	69.24011
358	69.41366
359	69.4887
360	69.53968
361	69.56779
362	69.79455
363	70.07851
364	70.59159
365	71.07783
366	71.49673
367	71.72679
368	71.8201
369	71.90137
370	72.02573
371	72.20373
372	72.36674
373	72.54271
374	72.69804
375	72.88121
376	73.03886
377	73.20505
378	73.36695
379	73.48562
380	73.6635
381	73.85916
382	74.01682
383	74.15852
384	74.30865
385	74.44814
386	74.62114
387	74.75185
388	74.87342
389	75.0418
390	75.19769
391	75.36283
392	75.46716
393	75.55654
394	75.70385
395	75.86911
396	76.02754
397	76.14667
398	76.22698
399	76.36134
400	76.53223
401	76.67101
402	76.78878
403	76.90556
404	77.02657
405	77.07513
406	77.20607
407	77.37036
408	77.48291
409	77.5837
410	77.70868
411	77.78568
412	77.86122
413	77.93922
414	78.07472
415	78.18126
416	78.29637
417	78.38014
418	78.48951
419	78.57488
420	78.64928
421	78.70612
422	78.78376
423	78.86979
424	78.98799
425	79.10429
426	79.20771
427	79.2519
428	79.34263
429	79.38846
430	79.45334
431	79.55897
432	79.65738
433	79.73544
434	79.83565
435	79.93529
436	79.96391
437	80.02785
438	80.09519
439	80.16803
440	80.24148
441	80.30705
442	80.42847
443	80.47723
444	80.53928
445	80.59908
446	80.6646
447	80.73158
448	80.77964
449	80.86092
450	80.91545
451	80.96522
452	81.02
453	81.10028
454	81.1555
455	81.2286
456	81.29623
457	81.31962
458	81.38179
459	81.4449
460	81.51915
461	81.55084
462	81.59795
463	81.64294
464	81.66356
465	81.7495
466	81.79368
467	81.85063
468	81.89198
469	81.92796
470	81.99113
471	82.03291
472	82.06912
473	82.12465
474	82.17985
475	82.23491
476	82.29362
477	82.30483
478	82.38475
479	82.45986
480	82.48304
481	82.52145
482	82.56912
483	82.58236
484	82.63841
485	82.68524
486	82.84554
487	82.98319
488	82.8823
489	82.87138
490	82.90578
491	82.95058
492	82.98829
493	83.02238
494	83.07709
495	83.11486
496	83.13859
497	83.17237
498	83.21677
499	83.26283
500	83.31148
501	83.36016
502	83.39146
503	83.42681
504	83.44917
505	83.49279
506	83.55588
507	83.57442
508	83.62545
509	83.64878
510	83.68589
511	83.71714
512	83.7712
513	83.78206
514	83.81297
515	83.84721
516	83.89399
517	83.92347
518	83.94209
519	83.97398
520	84.00497
521	84.02766
522	84.081
523	84.09891
524	84.15286
525	84.17115
526	84.18557
527	84.2318
528	84.25252
529	84.28879
530	84.3197
531	84.31915
532	84.37175
533	84.42049
534	84.45405
535	84.46295
536	84.47742
537	84.50581
538	84.53569
539	84.56688
540	84.59288
541	84.61574
542	84.63952
543	84.67726
544	84.70739
545	84.70813
546	84.74218
547	84.75614
548	84.78611
549	84.82112
550	84.83844
551	84.85912
552	84.89491
553	84.91169
554	84.93798
555	84.95757
556	84.97455
557	85.01542
558	85.03204
559	85.03858
560	85.0552
561	85.10583
562	85.0821
563	85.10844
564	85.16977
565	85.19558
566	85.22533
567	85.26165
568	85.30491
569	85.34856
570	85.37987
571	85.36956
572	85.37818
573	85.42957
574	85.45358
575	85.42919
576	85.47929
577	85.54182
578	85.52135
579	85.57451
580	85.59011
581	85.64708
582	85.67172
583	85.7022
584	85.69637
585	85.69938
586	85.74908
587	85.7777
588	85.79767
589	85.80558
590	85.82499
591	85.82235
592	85.81557
593	85.86307
594	85.91947
595	85.95796
596	85.96438
597	85.95211
598	85.97684
599	86.01461
600	86.04087
601	86.05598
602	86.08471
603	86.15071
604	86.13974
605	86.17077
606	86.18042
607	86.18988
608	86.22225
609	86.25558
610	86.2804
611	86.29328
612	86.31792
613	86.36323
614	86.37404
615	86.38827
616	86.41312
617	86.4395
618	86.45811
619	86.4695
620	86.4845
621	86.52002
622	86.48298
623	86.46456
624	86.45887
625	86.47956
626	86.60176
627	86.71155
628	86.85181
629	86.8377
630	86.75326
631	86.7066
632	86.78947
633	86.82302
634	86.79404
635	86.79804
636	86.86192
637	86.90637
638	86.92489
639	86.95811
640	87.02688
641	86.9583
642	87.0286
643	87.05172
644	87.06415
645	87.08882
646	87.12038
647	87.12784
648	87.15042
649	87.16573
650	87.2
651	87.22547
652	87.23045
653	87.25823
654	87.23754
655	87.55996
656	87.64749
657	87.40916
658	87.37404
659	87.36713
660	87.3727
661	87.3679
662	87.38402
663	87.39188
664	87.40724
665	87.40896
666	87.41357
667	87.42067
668	87.43296
669	87.38248
670	87.50595
671	87.44525
672	87.46906
673	87.49058
674	87.51018
675	87.53189
676	87.55112
677	87.5715
678	87.60362
679	87.6344
680	87.65923
681	87.68253
682	87.7066
683	87.73318
684	87.76016
685	87.78078
686	87.79485
687	87.82686
688	87.84287
689	87.86563
690	87.88184
691	87.90076
692	87.90886
693	87.91678
694	87.93184
695	87.92701
696	87.94169
697	87.95617
698	87.94825
699	87.96622
700	87.96873
701	87.98476
702	87.99578
703	87.99925
704	88.0093
705	88.0238
706	88.03134
707	88.05589
708	88.06053
709	88.08625
710	88.10599
711	88.12263
712	88.15185
713	88.15688
714	88.19232
715	88.20413
716	88.22176
717	88.24947
718	88.26807
719	88.28087
720	88.30743
721	88.321
722	88.34273
723	88.35262
724	88.36271
725	88.37513
726	88.38192
727	88.39551
728	88.39978
729	88.40405
730	88.4091
731	88.41492
732	88.43143
733	88.45706
734	88.45706
735	88.45473
736	88.47455
737	88.48621
738	88.48446
739	88.49378
740	88.50136
741	88.50778
742	88.53052
743	88.53149
744	88.56338
745	88.57622
746	88.58516
747	88.61182
748	88.62622
749	88.64471
750	88.66865
751	88.67761
752	88.69611
753	88.71501
754	88.73527
755	88.74599
756	88.78068
757	88.76626
758	88.78692
759	88.80954
760	88.83763
761	88.83626
762	88.84329
763	88.8708
764	88.87724
765	88.88622
766	88.88309
767	88.90906
768	88.92077
769	88.92604
770	88.92233
771	88.94928
772	88.94792
773	88.96061
774	88.95573
775	88.96335
776	88.97781
777	88.98367
778	88.98797
779	89.00614
780	89.01044
781	89.02061
782	89.03507
783	89.04485
784	89.06264
785	89.07086
786	89.08475
787	89.08866
788	89.11977
789	89.12153
790	89.13269
791	89.14404
792	89.16793
793	89.18398
794	89.20357
795	89.2118
796	89.21336
797	89.22394
798	89.24569
799	89.24981
800	89.26079
801	89.27862
802	89.27902
803	89.29019
804	89.3149
805	89.31372
806	89.32333
807	89.33942
808	89.33373
809	89.34432
810	89.35472
811	89.3561
812	89.37729
813	89.39103
814	89.41106
815	89.38789
816	89.41204
817	89.41361
818	89.43207
819	89.43089
820	89.44444
821	89.46546
822	89.4578
823	89.47784
824	89.49218
825	89.50397
826	89.5026
827	89.52461
828	89.52933
829	89.54526
830	89.54801
831	89.572
832	89.56944
833	89.59935
834	89.62827
835	89.60348
836	89.63024
837	89.64067
838	89.6393
839	89.65209
840	89.66646
841	89.67395
842	89.67907
843	89.68497
844	89.70112
845	89.68379
846	89.70566
847	89.70664
848	89.72634
849	89.74033
850	89.7293
851	89.72358
852	89.73166
853	89.73068
854	89.73698
855	89.74073
856	89.72102
857	89.74092
858	89.71373
859	89.73915
860	89.74408
861	89.74013
862	89.73678
863	89.74861
864	89.75019
865	89.74388
866	89.74348
867	89.74388
868	89.7559
869	89.76477
870	89.7904
871	89.78468
872	89.78054
873	89.80677
874	89.80696
875	89.83596
876	89.83931
877	89.83043
878	89.85746
879	89.87187
880	89.88687
881	89.87779
882	89.86792
883	89.87384
884	89.89121
885	89.88411
886	89.87542
887	89.88746
888	89.89516
889	89.89062
890	89.88924
891	89.90049
892	89.91391
893	89.91451
894	89.93267
895	89.90602
896	89.91076
897	89.90977
898	89.91451
899	89.92023
900	89.93366
901	89.93524
902	89.93248
903	89.93781
904	89.9388
905	89.95657
906	89.9627
907	89.98107
908	89.99668
909	90.00439
910	89.99767
911	90.03187
912	90.04056
913	90.04669
914	90.05263
915	90.06291
916	90.0817
917	90.09674
918	90.09218
919	90.10722
920	90.12464
921	90.13374
922	90.13869
923	90.14443
924	90.15947
925	90.19036
926	90.18066
927	90.21671
928	90.19987
929	90.2076
930	90.21215
931	90.22424
932	90.25297
933	90.25238
934	90.27101
935	90.29916
936	90.29638
937	90.29024
938	90.32494
939	90.31998
940	90.34438
941	90.34954
942	90.35053
943	90.35926
944	90.37553
945	90.38407
946	90.39518
947	90.38149
948	90.39022
949	90.4061
950	90.44363
951	90.43171
952	90.40392
953	90.43827
954	90.45356
955	90.44581
956	90.4482
957	90.4472
958	90.44879
959	90.47243
960	90.44045
961	90.44939
962	90.4331
963	90.45714
964	90.42655
965	90.41841
966	90.42079
967	90.41722
968	90.42675
969	90.40015
970	90.40451
971	90.41901
972	90.41722
973	90.38188
974	90.37633
975	90.36244
976	90.37097
977	90.3668
978	90.37434
979	90.36303
980	90.33803
981	90.35371
982	90.35529
983	90.35093
984	90.33486
985	90.38387
986	90.3797
987	90.37851
988	90.36998
989	90.38089
990	90.36263
991	90.41226
992	90.41623
993	90.40451
994	90.44065
995	90.43807
996	90.44482
997	90.42735
998	90.45892
999	90.42715
1000	90.45257
1001	90.47343
1002	90.49866
1003	90.48773
1004	90.5404
1005	90.55512
1006	90.52152
1007	90.48098
1008	90.53464
1009	90.5758
1010	90.57381
1011	90.54597
1012	90.59629
1013	90.54875
1014	90.63967
1015	90.60564
1016	90.64882
1017	90.60823
1018	90.65619
1019	90.68307
1020	90.67431
1021	90.72091
1022	90.73326
1023	90.76156
1024	90.69522
1025	90.73506
1026	90.73725
1027	90.77093
1028	90.75777
1029	90.80123
1030	90.72589
1031	90.79904
1032	90.77691
1033	90.76654
1034	90.7506
1035	90.76614
1036	90.82097
1037	90.85508
1038	90.73585
1039	90.77073
1040	90.84531
1041	90.75439
1042	90.71175
1043	90.94051
1044	90.82835
1045	90.83753
1046	90.88681
1047	90.78309
1048	90.90957
1049	90.97367
1050	90.95489
1051	90.83274
1052	90.89859
1053	90.82696
1054	90.93612
1055	90.86067
1056	90.74442
1057	90.87643
1058	90.97487
1059	91.07541
1060	90.88761
1061	90.82656
1062	90.96508
1063	91.02343
1064	91.05241
1065	90.81998
1066	90.78528
1067	91.02243
1068	90.9515
1069	91.09001
1070	90.9527
1071	91.11902
1072	91.11101
1073	90.93772
1074	90.91116
1075	91.06961
1076	90.89479
1077	91.10381
1078	90.8898
1079	91.15124
1080	91.05641
1081	91.3103
1082	91.06021
1083	90.82297
1084	90.93552
1085	90.9491
1086	90.98606
1087	91.07381
1088	91.28103
1089	91.35403
1090	90.98206
1091	90.71015
1092	90.87444
1093	91.15724
1094	91.08141
1095	91.03902
1096	90.73008
1097	91.35744
1098	91.44515
1099	90.6753
1100	90.50422
