# cellulose diacetate "Courtaulds" 0.115 mm thick
# ageing under Q-Panel UVB-313 lamps at 25? cm distance
# exposure time in min: 60
# HP array spectrophotometer (no integrating sphere)
w.length transmittance
250  0.01039
251	0.01909
252	0.01108
253	0.01694
254	0.01199
255	0.02786
256	0.01893
257	0.02105
258	0.02046
259	0.01394
260	0.02153
261	0.01921
262	0.0199
263	0.02346
264	0.02631
265	0.02892
266	0.03506
267	0.0339
268	0.03377
269	0.03693
270	0.03839
271	0.04682
272	0.05325
273	0.05929
274	0.04979
275	0.05992
276	0.07682
277	0.07727
278	0.08179
279	0.08897
280	0.09561
281	0.09839
282	0.12637
283	0.11185
284	0.12714
285	0.14206
286	0.16657
287	0.1928
288	0.23111
289	0.3303
290	0.67651
291	1.73934
292	4.33287
293	9.12179
294	16.20361
295	24.86896
296	33.77556
297	42.00367
298	48.9873
299	54.61733
300	58.81736
301	61.92504
302	64.20439
303	65.82471
304	66.99747
305	67.85667
306	68.49608
307	69.00954
308	69.41473
309	69.74185
310	70.03328
311	70.29305
312	70.5293
313	70.77288
314	71.01137
315	71.24926
316	71.48716
317	71.72664
318	71.96818
319	72.23164
320	72.48189
321	72.72805
322	72.97778
323	73.23239
324	73.48417
325	73.74491
326	73.98513
327	74.2263
328	74.44699
329	74.68605
330	74.91881
331	75.1287
332	75.37839
333	75.59836
334	75.82147
335	76.02721
336	76.24187
337	76.44439
338	76.65417
339	76.84698
340	77.02538
341	77.19573
342	77.33757
343	77.48546
344	77.6275
345	77.74692
346	77.84839
347	77.96027
348	78.06152
349	78.13423
350	78.22625
351	78.2974
352	78.3755
353	78.41664
354	78.48089
355	78.52899
356	78.5999
357	78.61612
358	78.51468
359	78.5647
360	78.71787
361	78.81577
362	78.91362
363	78.85316
364	78.85749
365	78.98504
366	79.19484
367	79.31284
368	79.35047
369	79.38898
370	79.42002
371	79.47114
372	79.50098
373	79.55355
374	79.57486
375	79.58832
376	79.60965
377	79.6803
378	79.71565
379	79.70883
380	79.74857
381	79.79201
382	79.82899
383	79.8609
384	79.90405
385	79.93406
386	79.97392
387	80.00009
388	79.98446
389	80.03383
390	80.10556
391	80.13987
392	80.10363
393	80.10961
394	80.17156
395	80.24024
396	80.29965
397	80.3104
398	80.25716
399	80.28395
400	80.39828
401	80.43677
402	80.45956
403	80.47476
404	80.49102
405	80.47599
406	80.50357
407	80.59201
408	80.61006
409	80.62741
410	80.6607
411	80.68497
412	80.68851
413	80.68621
414	80.72183
415	80.77449
416	80.78496
417	80.8043
418	80.81033
419	80.85009
420	80.8421
421	80.82329
422	80.80075
423	80.86092
424	80.92096
425	80.95046
426	80.99082
427	80.99616
428	81.00078
429	80.9999
430	80.94815
431	80.99029
432	81.05719
433	81.12486
434	81.13733
435	81.18705
436	81.15675
437	81.16245
438	81.17546
439	81.1908
440	81.22093
441	81.2352
442	81.27588
443	81.27803
444	81.30659
445	81.32087
446	81.31355
447	81.35177
448	81.38715
449	81.37929
450	81.41682
451	81.4254
452	81.44025
453	81.45527
454	81.48014
455	81.51235
456	81.51432
457	81.52291
458	81.55675
459	81.55836
460	81.54243
461	81.5847
462	81.61462
463	81.6243
464	81.62985
465	81.61874
466	81.57538
467	81.63021
468	81.6329
469	81.64348
470	81.67307
471	81.70248
472	81.71145
473	81.71038
474	81.70213
475	81.74502
476	81.76458
477	81.77195
478	81.7908
479	81.80912
480	81.84488
481	81.85926
482	81.85027
483	81.8634
484	81.87616
485	81.94469
486	81.97025
487	82.02859
488	81.98753
489	81.9294
490	81.94631
491	81.96197
492	81.97565
493	82.00211
494	82.02895
495	82.04606
496	82.03363
497	82.04138
498	82.06786
499	82.0776
500	82.10229
501	82.11383
502	82.11455
503	82.13222
504	82.16253
505	82.16975
506	82.2053
507	82.19844
508	82.23184
509	82.22697
510	82.23672
511	82.23292
512	82.25026
513	82.25929
514	82.29109
515	82.30862
516	82.31657
517	82.32814
518	82.3361
519	82.34369
520	82.35943
521	82.37932
522	82.38384
523	82.39615
524	82.4137
525	82.44501
526	82.45081
527	82.47199
528	82.46258
529	82.46529
530	82.48902
531	82.49862
532	82.50496
533	82.52761
534	82.53613
535	82.5528
536	82.57329
537	82.59378
538	82.60956
539	82.62898
540	82.63769
541	82.6415
542	82.64513
543	82.62825
544	82.65311
545	82.68325
546	82.70522
547	82.74137
548	82.74882
549	82.76772
550	82.75173
551	82.72883
552	82.71357
553	82.743
554	82.80771
555	82.84645
556	82.85537
557	82.843
558	82.81353
559	82.80699
560	82.85864
561	82.9178
562	82.96898
563	82.91816
564	82.83845
565	82.8874
566	82.97736
567	83.05976
568	83.01837
569	82.95277
570	82.95386
571	83.06286
572	83.10993
573	83.07089
574	82.96497
575	82.93783
576	83.12709
577	83.23943
578	83.02001
579	82.94803
580	83.15795
581	83.27581
582	83.13695
583	83.08621
584	83.19393
585	83.2621
586	83.17183
587	83.11012
588	83.31331
589	83.38835
590	83.19521
591	83.14516
592	83.32721
593	83.34478
594	83.19027
595	83.28624
596	83.47538
597	83.28788
598	83.16982
599	83.40868
600	83.41179
601	83.21878
602	83.41582
603	83.58194
604	83.27855
605	83.35686
606	83.56469
607	83.32557
608	83.34753
609	83.61627
610	83.39934
611	83.35631
612	83.63978
613	83.4259
614	83.38176
615	83.65355
616	83.43378
617	83.46804
618	83.70133
619	83.38817
620	83.60342
621	83.69637
622	83.31825
623	83.80266
624	83.54561
625	83.69471
626	83.6306
627	83.52066
628	83.67872
629	83.6688
630	83.59314
631	83.6137
632	83.78114
633	83.62435
634	83.79696
635	83.67854
636	83.79714
637	83.83322
638	83.66274
639	83.95407
640	83.74361
641	83.80082
642	83.91628
643	83.71328
644	84.02342
645	83.76605
646	83.98154
647	83.86544
648	83.9091
649	84.01622
650	83.80874
651	84.13678
652	83.83046
653	84.08525
654	83.92937
655	84.23809
656	84.60515
657	84.37731
658	84.19888
659	83.93213
660	84.21367
661	83.94264
662	84.16819
663	84.02618
664	84.13604
665	84.06512
666	84.16487
667	84.10205
668	84.15988
669	84.11941
670	84.20794
671	84.22089
672	84.1353
673	84.23883
674	84.21182
675	84.24919
676	84.22569
677	84.31322
678	84.22902
679	84.35545
680	84.25788
681	84.34878
682	84.3197
683	84.35007
684	84.35971
685	84.35674
686	84.36526
687	84.38787
688	84.38528
689	84.40158
690	84.39417
691	84.38361
692	84.41993
693	84.35526
694	84.46258
695	84.35452
696	84.45999
697	84.38787
698	84.44459
699	84.44051
700	84.41437
701	84.50302
702	84.38379
703	84.54312
704	84.4077
705	84.54701
706	84.4674
707	84.49542
708	84.55797
709	84.47056
710	84.65439
711	84.46889
712	84.69325
713	84.52919
714	84.66443
715	84.63172
716	84.59103
717	84.75986
718	84.52065
719	84.83844
720	84.52604
721	84.82186
722	84.62744
723	84.71595
724	84.76786
725	84.60775
726	84.85521
727	84.5849
728	84.83099
729	84.65439
730	84.7727
731	84.6728
732	84.7835
733	84.64212
734	84.92623
735	84.56892
736	84.91728
737	84.6412
738	84.82689
739	84.79784
740	84.72227
741	84.8718
742	84.76637
743	84.82261
744	84.8718
745	84.84552
746	84.83062
747	84.99209
748	84.72078
749	85.09798
750	84.78909
751	85.02009
752	84.88428
753	84.99172
754	84.83639
755	85.16322
756	84.77363
757	85.14228
758	84.86304
759	85.03316
760	84.97996
761	85.1034
762	84.88447
763	85.1679
764	84.95533
765	85.02233
766	85.12433
767	84.96858
768	85.07612
769	85.03689
770	85.13013
771	84.91449
772	85.33432
773	84.83695
774	85.2946
775	84.89976
776	85.31034
777	84.80324
778	85.41775
779	84.83565
780	85.30097
781	84.99396
782	85.22103
783	85.03559
784	85.20755
785	85.21448
786	84.98873
787	85.39524
788	84.96149
789	85.41118
790	84.95197
791	85.52266
792	84.93985
793	85.40049
794	85.17313
795	85.23787
796	85.32102
797	85.15312
798	85.51309
799	84.97156
800	85.59218
